Folder: TTT/TimeKAN-main/dataset

File: dwt batterydata.csv
date,Capacity,Charge_V_kurtosis,Charge_Q,Charge_energy,CC_energy,CC_t_mean,CC_CCCT,CC_Q,Var12,Var13,Var15,MS_discharge_capacity_Ah_ma_5,MS_discharge_capacity_Ah_slope_20,PS_mean_dist,Cycle,Target
2025/1/1,1.285,1.91248,1.97643,7.75587,6.50844,12.6,25.191,1.6794,60.2048,4.46347,8.18936,0,0,0,1,1
2025/1/7,1.89,1.82155,1.89421,7.42868,6.20766,12.0245,24.052,1.60348,60.2387,4.86387,41.7272,1.8822,0,0.0866474,7,0.950276
2025/1/13,1.911,1.77957,1.91499,7.50198,6.27939,12.1783,24.358,1.62388,60.1291,4.94219,41.9728,1.9054,0,0.0420863,13,0.960824
2025/1/19,1.93,1.75499,1.93187,7.56148,6.33404,12.2911,24.594,1.63961,60.0116,5.00295,42.1161,1.9254,0,0.0423331,19,0.969362
2025/1/25,1.943,1.74793,1.94484,7.60647,6.37354,12.3823,24.769,1.65127,59.8743,5.07738,42.1501,1.94,0.00297068,0.0463769,25,0.976394
2025/1/31,1.951,1.75484,1.95227,7.63302,6.3988,12.4371,24.876,1.65839,59.8033,5.13979,42.2178,1.949,0.00216692,0.0496318,31,0.97991
2025/2/6,1.958,1.7617,1.95912,7.65631,6.4185,12.4819,24.966,1.66439,59.7345,5.19681,42.2688,1.9554,0.00148271,0.0349647,37,0.983425
2025/2/12,1.962,1.77534,1.96223,7.66759,6.42621,12.5017,25,1.66665,59.68,5.23596,42.2999,1.9602,0.00100902,0.0243341,43,0.984932
2025/2/18,1.969,1.79032,1.96539,7.67883,6.43403,12.5174,25.035,1.66899,59.5826,5.29798,42.3559,1.9632,0.000742105,0.0163845,49,0.987443
2025/2/24,1.963,1.80111,1.9628,7.67188,6.41975,12.4864,24.97,1.66466,59.6597,5.29287,42.2974,1.9622,0.000293233,0.0113727,55,0.985434
2025/3/2,1.969,1.8078,1.96719,7.68517,6.43309,12.5174,25.036,1.66906,59.5531,5.35019,42.3446,1.9664,0.000300752,0.00783527,61,0.987946
2025/3/8,1.964,1.81926,1.963,7.67324,6.413,12.4722,24.944,1.66293,59.5952,5.35363,42.297,1.9634,1.57895e-05,0.00597725,67,0.985434
2025/3/14,1.968,1.82784,1.9675,7.68647,6.42634,12.5086,25.012,1.66746,59.519,5.40131,42.326,1.9668,0.000109774,0.00523885,73,0.987946
2025/3/20,1.965,1.83931,1.9644,7.67739,6.40622,12.4632,24.926,1.66172,59.5297,5.41577,42.2848,1.9646,-3.31E-05,0.00463059,79,0.986439
2025/3/26,1.969,1.84483,1.96625,7.68221,6.41247,12.4811,24.959,1.66392,59.4368,5.46595,42.3106,1.967,0.000144361,0.00456549,85,0.987443
2025/4/1,1.962,1.85285,1.96111,7.66673,6.38948,12.4272,24.855,1.65699,59.5136,5.45031,42.2522,1.9614,-0.000237594,0.00522849,91,0.98443
2025/4/7,1.961,1.86332,1.96128,7.66658,6.3844,12.4214,24.84,1.65598,59.4601,5.47972,42.2501,1.9596,-0.000390226,0.00672607,97,0.98443
2025/4/13,1.956,1.87467,1.95555,7.64933,6.3618,12.3651,24.735,1.64898,59.4973,5.48299,42.2054,1.957,-0.000493985,0.00731231,103,0.981919
2025/4/19,1.958,1.87743,1.95906,7.65825,6.3739,12.3971,24.799,1.65325,59.4452,5.51343,42.2311,1.9576,-0.000216541,0.00830956,109,0.983425
2025/4/25,1.955,1.89203,1.95402,7.64281,6.34851,12.3444,24.688,1.64585,59.4674,5.52216,42.1887,1.9546,-0.000256391,0.00529337,115,0.980914
2025/5/1,1.956,1.88779,1.95661,7.64809,6.36,12.3749,24.749,1.64991,59.408,5.55095,42.2032,1.955,-0.000115789,0.00524328,121,0.982421
2025/5/7,1.954,1.8924,1.95304,7.63636,6.34004,12.3321,24.666,1.64438,59.3834,5.56922,42.1815,1.9534,-0.000185714,0.00429821,127,0.980412
2025/5/13,1.952,1.8925,1.95263,7.63299,6.34006,12.3356,24.672,1.64478,59.3564,5.58128,42.1755,1.9512,-0.000177444,0.0047535,133,0.980412
2025/5/19,1.949,1.9084,1.94741,7.61734,6.31192,12.2748,24.549,1.63658,59.3878,5.58419,42.1372,1.949,-0.000382707,0.00466279,139,0.977901
2025/5/25,1.949,1.90468,1.94846,7.6178,6.31919,12.2953,24.589,1.63925,59.3464,5.59704,42.1368,1.9474,-0.000320301,0.00640282,145,0.978403
2025/5/31,1.944,1.91403,1.94341,7.60199,6.29349,12.2385,24.478,1.63185,59.3697,5.59423,42.0946,1.9446,-0.000378947,0.00625739,151,0.975892
2025/6/6,1.95,1.90273,1.94941,7.61578,6.32663,12.3191,24.637,1.64245,59.2343,5.62869,42.1633,1.9454,-0.000134586,0.00687332,157,0.978905
2025/6/12,1.944,1.90503,1.94363,7.59788,6.2994,12.2593,24.517,1.63445,59.2872,5.61847,42.1046,1.9444,-8.72E-05,0.00572871,163,0.975892
2025/6/18,1.942,1.90593,1.94195,7.59129,6.28865,12.2383,24.477,1.63178,59.2804,5.62077,42.0884,1.9414,-0.000153383,0.00569365,169,0.974887
2025/6/24,1.937,1.91853,1.93629,7.5741,6.25854,12.1734,24.346,1.62305,59.3294,5.61517,42.0339,1.9374,-0.00062406,0.00652085,175,0.972376
2025/6/30,1.933,1.9227,1.93277,7.56241,6.24181,12.1327,24.275,1.61832,59.3449,5.61152,42.0045,1.933,-0.00064812,0.0095442,181,0.970367
2025/7/6,1.93,1.93318,1.92919,7.55108,6.22561,12.0995,24.204,1.61359,59.4028,5.60224,42.0656,1.9298,-0.000681203,0.0104238,187,0.96886
2025/7/12,1.926,1.93976,1.92586,7.53987,6.20625,12.0631,24.125,1.60832,59.4241,5.60103,42.0366,1.9262,-0.000590977,0.0105193,193,0.966851
2025/7/18,1.923,1.94331,1.92276,7.52927,6.19075,12.0315,24.061,1.60405,59.4307,5.60218,42.0113,1.9232,-0.000543609,0.00979794,199,0.965344
2025/7/24,1.918,1.9573,1.91728,7.51206,6.16436,11.9716,23.946,1.59639,59.4374,5.6076,41.9034,1.9182,-0.000638346,0.00952217,205,0.962833
2025/7/30,1.912,1.97191,1.91119,7.49309,6.13232,11.9032,23.808,1.58719,59.4613,5.60288,41.8079,1.9128,-0.000790226,0.0109626,211,0.959819
2025/8/5,1.907,1.98998,1.90496,7.47375,6.10277,11.8392,23.678,1.57852,59.4896,5.60068,41.7529,1.9074,-0.000908271,0.0127447,217,0.956806
2025/8/11,1.899,2.00882,1.89772,7.45095,6.0714,11.7688,23.539,1.56925,59.5514,5.60149,41.6951,1.9008,-0.000990226,0.0146543,223,0.95329
2025/8/17,1.89,2.04468,1.88879,7.42317,6.02715,11.6716,23.346,1.55639,59.6376,5.60102,41.6232,1.892,-0.001215038,0.0169454,229,0.948769
2025/8/23,1.881,2.08176,1.87976,7.39493,5.98446,11.5784,23.159,1.54392,59.6966,5.60485,41.5492,1.8824,-0.00146391,0.020191,235,0.944249
2025/8/29,1.873,2.10787,1.87249,7.37119,5.95207,11.5095,23.019,1.53459,59.7418,5.60317,41.4762,1.8746,-0.001457895,0.0226722,241,0.940231
2025/9/4,1.868,2.11572,1.86761,7.35379,5.9308,11.4663,22.932,1.52879,59.7454,5.61368,41.4329,1.8686,-0.001229323,0.0225852,247,0.93772
2025/9/10,1.86,2.15747,1.85938,7.32743,5.88946,11.379,22.755,1.51699,59.7903,5.6162,41.3478,1.8614,-0.001118797,0.0203833,253,0.933702
2025/9/16,1.861,2.24456,1.86139,7.34014,5.86489,11.3253,22.652,1.51013,59.7166,5.62998,40.736,1.8618,-0.000677444,0.0168528,259,0.935711
2025/9/22,1.855,2.23839,1.84971,7.29598,5.83256,11.2621,22.519,1.50126,59.8026,5.62576,40.6725,1.86,-0.000294737,0.0115583,265,0.933199
2025/9/28,1.848,2.24693,1.84466,7.27842,5.80202,11.1935,22.397,1.49313,59.8226,5.66055,40.9436,1.8478,-0.00082406,0.0125873,271,0.927172
2025/10/4,1.839,2.27185,1.84045,7.26414,5.77827,11.1534,22.3,1.48666,59.8892,5.66521,40.8624,1.8416,-0.001420301,0.015759,277,0.924661
2025/10/10,1.833,2.29863,1.83072,7.22952,5.72856,11.0472,22.1,1.47333,59.8795,5.64297,40.7909,1.8356,-0.001141353,0.019609,283,0.919638
2025/10/16,1.822,2.32955,1.82412,7.20713,5.69854,10.9639,21.974,1.46492,59.9474,5.69172,40.7343,1.8246,-0.001357895,0.0219692,289,0.916123
2025/10/22,1.82,2.3666,1.8179,7.18358,5.66608,10.9261,21.849,1.45658,59.9197,5.65701,40.6634,1.8204,-0.001293985,0.0203425,295,0.913611
2025/10/28,1.805,2.43532,1.80603,7.14366,5.60441,10.7925,21.593,1.43953,59.9763,5.71617,40.5746,1.8084,-0.001330827,0.0219446,301,0.907082
2025/11/3,1.799,2.48498,1.79909,7.11693,5.57461,10.7417,21.478,1.43186,59.9178,5.6879,40.3921,1.8028,-0.001397744,0.022434,307,0.903566
2025/11/9,1.788,2.52671,1.78638,7.07039,5.52378,10.6395,21.272,1.41813,59.9991,5.73528,40.4061,1.7904,-0.001615038,0.0232989,313,0.897539
2025/11/15,1.774,2.59544,1.77115,7.01477,5.45371,10.497,20.992,1.39946,60.0185,5.71372,40.2623,1.7776,-0.001900752,0.0273202,319,0.890005
2025/11/21,1.759,2.66305,1.75578,6.9587,5.38527,10.3558,20.717,1.38113,60.0578,5.72619,40.1267,1.7622,-0.002293985,0.0314985,325,0.882471
2025/11/27,1.746,2.70914,1.74451,6.91548,5.33977,10.2708,20.54,1.36933,60.0682,5.73277,40.0277,1.7484,-0.002422556,0.0366251,331,0.876444
2025/12/3,1.733,2.78058,1.72638,6.84869,5.26073,10.1181,20.224,1.34827,60.1163,5.75315,39.875,1.7342,-0.002359398,0.0380796,337,0.867906
2025/12/9,1.717,2.81987,1.71701,6.81283,5.22468,10.0387,20.083,1.33887,60.0595,5.76933,39.8108,1.7208,-0.002319549,0.038571,343,0.862883
2025/12/15,1.708,2.90873,1.70537,6.7716,5.17019,9.92953,19.861,1.32407,60.0783,5.79098,39.7163,1.7106,-0.002086466,0.0360307,349,0.857358
2025/12/21,1.697,2.92549,1.69428,6.72871,5.12987,9.84382,19.704,1.31359,60.0433,5.81425,39.6456,1.7,-0.001792481,0.033222,355,0.851331
2025/12/27,1.684,2.97285,1.68153,6.68101,5.08086,9.75305,19.508,1.30052,60.2184,5.81447,40.1048,1.6862,-0.00196391,0.031425,361,0.844802
2026/1/2,1.675,2.97646,1.67286,6.64577,5.04843,9.69588,19.388,1.29253,60.1418,5.84025,40.0355,1.6778,-0.00187218,0.0304891,367,0.840784
2026/1/8,1.662,3.05304,1.65959,6.59761,4.99216,9.57817,19.16,1.27733,60.173,5.8523,39.9133,1.6646,-0.00185188,0.0306927,373,0.833752
2026/1/14,1.657,3.06385,1.65602,6.58211,4.97233,9.54275,19.091,1.27273,60.1323,5.85009,39.8621,1.6576,-0.001655639,0.0300011,379,0.831241
2026/1/20,1.647,3.16953,1.6451,6.54377,4.92492,9.44681,18.895,1.25966,60.1598,5.83288,39.5593,1.6488,-0.001458647,0.0262989,385,0.826218
2026/1/25,1.642,3.16804,1.64234,6.52095,4.90888,9.42268,18.82,1.25232,60.8697,5.11383,41.1488,1.6316,-0.002014286,0.028309,390,0.799598